{
  "participant_id": "test_01",
  "block_number": 1,
  "timestamp": "20251118_192105",
  "total_trials": 10,
  "trials": [
    {
      "trial_number": 1,
      "block_number": 1,
      "trial_in_block": 2,
      "display_order": 1,
      "trajectory_type": "R",
      "duration": 3207.0708377451697,
      "speed": 3.33,
      "assigned_speed": 3.33,
      "assigned_duration": null,
      "trajectory_number": 7,
      "condition_type": "occlusion_timed",
      "start_time": 1207,
      "movement_start_time": 2140,
      "stimulus_start_time": null,
      "movement_end_time": 3435,
      "occlusion_start_time": 2651,
      "reference_response_time": 3207.0708377451697,
      "stimulus_presentation_time": 0.0,
      "trajectory_completion_time": 3207.0708377451697,
      "actual_response_time_movement": 1295,
      "actual_response_time_stimulus": null,
      "space_press_time": 3435,
      "reaction_time": 1295,
      "stopped_by_user": true,
      "completed_normally": false,
      "actual_trajectory_duration": 1295,
      "timing_estimation": null,
      "reproduction_results": null,
      "occlusion_zone": {
        "start_segment": 0,
        "start_progress": 0.0,
        "end_segment": 0,
        "end_progress": 1.0
      },
      "was_visible_when_stopped": false
    },
    {
      "trial_number": 2,
      "block_number": 1,
      "trial_in_block": 6,
      "display_order": 2,
      "trajectory_type": "none",
      "duration": 0,
      "speed": 0,
      "assigned_speed": null,
      "assigned_duration": 500,
      "trajectory_number": 0,
      "condition_type": "reproduction",
      "start_time": 4895,
      "movement_start_time": null,
      "stimulus_start_time": null,
      "movement_end_time": 7777,
      "occlusion_start_time": null,
      "reference_response_time": null,
      "stimulus_presentation_time": null,
      "trajectory_completion_time": null,
      "actual_response_time_movement": null,
      "actual_response_time_stimulus": null,
      "space_press_time": null,
      "reaction_time": null,
      "stopped_by_user": false,
      "completed_normally": true,
      "actual_trajectory_duration": null,
      "timing_estimation": null,
      "reproduction_results": {
        "target_duration": 500,
        "reproduced_duration": 565,
        "reproduction_error": 65,
        "reproduction_error_abs": 65,
        "reproduction_ratio": 1.13
      },
      "occlusion_zone": null,
      "was_visible_when_stopped": true
    },
    {
      "trial_number": 2,
      "block_number": 1,
      "trial_in_block": 6,
      "display_order": 2,
      "trajectory_type": "none",
      "duration": 0,
      "speed": 0,
      "assigned_speed": null,
      "assigned_duration": 500,
      "trajectory_number": 0,
      "condition_type": "reproduction",
      "start_time": 4895,
      "movement_start_time": null,
      "stimulus_start_time": null,
      "movement_end_time": 7777,
      "occlusion_start_time": null,
      "reference_response_time": null,
      "stimulus_presentation_time": null,
      "trajectory_completion_time": null,
      "actual_response_time_movement": null,
      "actual_response_time_stimulus": null,
      "space_press_time": null,
      "reaction_time": null,
      "stopped_by_user": false,
      "completed_normally": true,
      "actual_trajectory_duration": null,
      "timing_estimation": null,
      "reproduction_results": {
        "target_duration": 500,
        "reproduced_duration": 565,
        "reproduction_error": 65,
        "reproduction_error_abs": 65,
        "reproduction_ratio": 1.13
      },
      "occlusion_zone": null,
      "was_visible_when_stopped": true
    },
    {
      "trial_number": 3,
      "block_number": 1,
      "trial_in_block": 1,
      "display_order": 3,
      "trajectory_type": "R",
      "duration": 1000.9815986958739,
      "speed": 6.67,
      "assigned_speed": 6.67,
      "assigned_duration": null,
      "trajectory_number": 4,
      "condition_type": "occlusion_timed",
      "start_time": 8843,
      "movement_start_time": 9777,
      "stimulus_start_time": null,
      "movement_end_time": 10536,
      "occlusion_start_time": 10286,
      "reference_response_time": 1000.9815986958739,
      "stimulus_presentation_time": 0.0,
      "trajectory_completion_time": 1000.9815986958739,
      "actual_response_time_movement": 759,
      "actual_response_time_stimulus": null,
      "space_press_time": 10536,
      "reaction_time": 759,
      "stopped_by_user": true,
      "completed_normally": false,
      "actual_trajectory_duration": 759,
      "timing_estimation": null,
      "reproduction_results": null,
      "occlusion_zone": {
        "start_segment": 0,
        "start_progress": 0.0,
        "end_segment": 0,
        "end_progress": 1.0
      },
      "was_visible_when_stopped": false
    },
    {
      "trial_number": 4,
      "block_number": 1,
      "trial_in_block": 3,
      "display_order": 4,
      "trajectory_type": "R",
      "duration": 1001.0010010010011,
      "speed": 3.33,
      "assigned_speed": 3.33,
      "assigned_duration": null,
      "trajectory_number": 1,
      "condition_type": "timing_estimation",
      "start_time": 12011,
      "movement_start_time": 12935,
      "stimulus_start_time": null,
      "movement_end_time": 14327,
      "occlusion_start_time": null,
      "reference_response_time": 1001.0010010010011,
      "stimulus_presentation_time": 0.0,
      "trajectory_completion_time": 1001.0010010010011,
      "actual_response_time_movement": null,
      "actual_response_time_stimulus": null,
      "space_press_time": null,
      "reaction_time": null,
      "stopped_by_user": false,
      "completed_normally": true,
      "actual_trajectory_duration": null,
      "timing_estimation": {
        "actual_duration": 1408,
        "estimated_duration": 501,
        "estimation_error": -907,
        "estimation_error_abs": 907,
        "estimation_ratio": 0.35582386363636365
      },
      "reproduction_results": null,
      "occlusion_zone": null,
      "was_visible_when_stopped": true
    },
    {
      "trial_number": 4,
      "block_number": 1,
      "trial_in_block": 3,
      "display_order": 4,
      "trajectory_type": "R",
      "duration": 1001.0010010010011,
      "speed": 3.33,
      "assigned_speed": 3.33,
      "assigned_duration": null,
      "trajectory_number": 1,
      "condition_type": "timing_estimation",
      "start_time": 12011,
      "movement_start_time": 12935,
      "stimulus_start_time": null,
      "movement_end_time": 14327,
      "occlusion_start_time": null,
      "reference_response_time": 1001.0010010010011,
      "stimulus_presentation_time": 0.0,
      "trajectory_completion_time": 1001.0010010010011,
      "actual_response_time_movement": null,
      "actual_response_time_stimulus": null,
      "space_press_time": null,
      "reaction_time": null,
      "stopped_by_user": false,
      "completed_normally": true,
      "actual_trajectory_duration": null,
      "timing_estimation": {
        "actual_duration": 1408,
        "estimated_duration": 501,
        "estimation_error": -907,
        "estimation_error_abs": 907,
        "estimation_ratio": 0.35582386363636365
      },
      "reproduction_results": null,
      "occlusion_zone": null,
      "was_visible_when_stopped": true
    },
    {
      "trial_number": 5,
      "block_number": 1,
      "trial_in_block": 5,
      "display_order": 5,
      "trajectory_type": "none",
      "duration": 0,
      "speed": 0,
      "assigned_speed": null,
      "assigned_duration": 1600,
      "trajectory_number": 0,
      "condition_type": "reproduction",
      "start_time": 15427,
      "movement_start_time": null,
      "stimulus_start_time": null,
      "movement_end_time": 19610,
      "occlusion_start_time": null,
      "reference_response_time": null,
      "stimulus_presentation_time": null,
      "trajectory_completion_time": null,
      "actual_response_time_movement": null,
      "actual_response_time_stimulus": null,
      "space_press_time": null,
      "reaction_time": null,
      "stopped_by_user": false,
      "completed_normally": true,
      "actual_trajectory_duration": null,
      "timing_estimation": null,
      "reproduction_results": {
        "target_duration": 1600,
        "reproduced_duration": 751,
        "reproduction_error": -849,
        "reproduction_error_abs": 849,
        "reproduction_ratio": 0.469375
      },
      "occlusion_zone": null,
      "was_visible_when_stopped": true
    },
    {
      "trial_number": 5,
      "block_number": 1,
      "trial_in_block": 5,
      "display_order": 5,
      "trajectory_type": "none",
      "duration": 0,
      "speed": 0,
      "assigned_speed": null,
      "assigned_duration": 1600,
      "trajectory_number": 0,
      "condition_type": "reproduction",
      "start_time": 15427,
      "movement_start_time": null,
      "stimulus_start_time": null,
      "movement_end_time": 19610,
      "occlusion_start_time": null,
      "reference_response_time": null,
      "stimulus_presentation_time": null,
      "trajectory_completion_time": null,
      "actual_response_time_movement": null,
      "actual_response_time_stimulus": null,
      "space_press_time": null,
      "reaction_time": null,
      "stopped_by_user": false,
      "completed_normally": true,
      "actual_trajectory_duration": null,
      "timing_estimation": null,
      "reproduction_results": {
        "target_duration": 1600,
        "reproduced_duration": 751,
        "reproduction_error": -849,
        "reproduction_error_abs": 849,
        "reproduction_ratio": 0.469375
      },
      "occlusion_zone": null,
      "was_visible_when_stopped": true
    },
    {
      "trial_number": 6,
      "block_number": 1,
      "trial_in_block": 4,
      "display_order": 6,
      "trajectory_type": "R",
      "duration": 2831.2583831293196,
      "speed": 3.33,
      "assigned_speed": 3.33,
      "assigned_duration": null,
      "trajectory_number": 2,
      "condition_type": "timing_estimation",
      "start_time": 19983,
      "movement_start_time": 20911,
      "stimulus_start_time": null,
      "movement_end_time": 23668,
      "occlusion_start_time": null,
      "reference_response_time": 2831.2583831293196,
      "stimulus_presentation_time": 0.0,
      "trajectory_completion_time": 2831.2583831293196,
      "actual_response_time_movement": 2757,
      "actual_response_time_stimulus": null,
      "space_press_time": 23668,
      "reaction_time": 2757,
      "stopped_by_user": true,
      "completed_normally": true,
      "actual_trajectory_duration": 2757,
      "timing_estimation": {
        "actual_duration": 2757,
        "estimated_duration": 2409,
        "estimation_error": -348,
        "estimation_error_abs": 348,
        "estimation_ratio": 0.8737758433079434
      },
      "reproduction_results": null,
      "occlusion_zone": null,
      "was_visible_when_stopped": true
    },
    {
      "trial_number": 6,
      "block_number": 1,
      "trial_in_block": 4,
      "display_order": 6,
      "trajectory_type": "R",
      "duration": 2831.2583831293196,
      "speed": 3.33,
      "assigned_speed": 3.33,
      "assigned_duration": null,
      "trajectory_number": 2,
      "condition_type": "timing_estimation",
      "start_time": 19983,
      "movement_start_time": 20911,
      "stimulus_start_time": null,
      "movement_end_time": 23668,
      "occlusion_start_time": null,
      "reference_response_time": 2831.2583831293196,
      "stimulus_presentation_time": 0.0,
      "trajectory_completion_time": 2831.2583831293196,
      "actual_response_time_movement": 2757,
      "actual_response_time_stimulus": null,
      "space_press_time": 23668,
      "reaction_time": 2757,
      "stopped_by_user": true,
      "completed_normally": false,
      "actual_trajectory_duration": 2757,
      "timing_estimation": {
        "actual_duration": 2757,
        "estimated_duration": 2409,
        "estimation_error": -348,
        "estimation_error_abs": 348,
        "estimation_ratio": 0.8737758433079434
      },
      "reproduction_results": null,
      "occlusion_zone": null,
      "was_visible_when_stopped": true
    }
  ]
}