{
  "participant_id": "test_01",
  "block_number": 1,
  "timestamp": "20251119_165803",
  "total_trials": 60,
  "trials": [
    {
      "trial_number": 1,
      "block_number": 1,
      "trial_in_block": 1,
      "display_order": 1,
      "trajectory_type": "sequential",
      "duration": 1000.0243403820965,
      "speed": 8.99,
      "assigned_speed": 8.99,
      "assigned_duration": 500,
      "trajectory_number": 0,
      "condition_type": "occlusion_timed",
      "start_time": 355,
      "movement_start_time": 2812,
      "stimulus_start_time": null,
      "movement_end_time": 3625,
      "occlusion_start_time": 3327,
      "reference_response_time": 1000.0243403820965,
      "stimulus_presentation_time": 0.0,
      "trajectory_completion_time": 1000.0243403820965,
      "actual_response_time_movement": 813,
      "actual_response_time_stimulus": null,
      "space_press_time": 3625,
      "reaction_time": 813,
      "stopped_by_user": true,
      "completed_normally": false,
      "actual_trajectory_duration": 813,
      "timing_estimation": null,
      "reproduction_results": null,
      "occlusion_zone": {
        "start_segment": 0,
        "start_progress": 0.0,
        "end_segment": 0,
        "end_progress": 1.0
      },
      "was_visible_when_stopped": false
    },
    {
      "trial_number": 2,
      "block_number": 1,
      "trial_in_block": 2,
      "display_order": 2,
      "trajectory_type": "sequential",
      "duration": 1000.0145007447629,
      "speed": 8.99,
      "assigned_speed": 8.99,
      "assigned_duration": 500,
      "trajectory_number": 1,
      "condition_type": "occlusion_timed",
      "start_time": 5020,
      "movement_start_time": 5940,
      "stimulus_start_time": null,
      "movement_end_time": 6739,
      "occlusion_start_time": 6455,
      "reference_response_time": 1000.0145007447629,
      "stimulus_presentation_time": 0.0,
      "trajectory_completion_time": 1000.0145007447629,
      "actual_response_time_movement": 799,
      "actual_response_time_stimulus": null,
      "space_press_time": 6739,
      "reaction_time": 799,
      "stopped_by_user": true,
      "completed_normally": false,
      "actual_trajectory_duration": 799,
      "timing_estimation": null,
      "reproduction_results": null,
      "occlusion_zone": {
        "start_segment": 0,
        "start_progress": 0.0,
        "end_segment": 0,
        "end_progress": 1.0
      },
      "was_visible_when_stopped": false
    },
    {
      "trial_number": 3,
      "block_number": 1,
      "trial_in_block": 3,
      "display_order": 3,
      "trajectory_type": "sequential",
      "duration": 2099.9959167450343,
      "speed": 8.99,
      "assigned_speed": 8.99,
      "assigned_duration": 1600,
      "trajectory_number": 0,
      "condition_type": "occlusion_timed",
      "start_time": 8018,
      "movement_start_time": 8942,
      "stimulus_start_time": null,
      "movement_end_time": 10118,
      "occlusion_start_time": 9457,
      "reference_response_time": 2099.9959167450343,
      "stimulus_presentation_time": 0.0,
      "trajectory_completion_time": 2099.9959167450343,
      "actual_response_time_movement": 1176,
      "actual_response_time_stimulus": null,
      "space_press_time": 10118,
      "reaction_time": 1176,
      "stopped_by_user": true,
      "completed_normally": false,
      "actual_trajectory_duration": 1176,
      "timing_estimation": null,
      "reproduction_results": null,
      "occlusion_zone": {
        "start_segment": 0,
        "start_progress": 0.0,
        "end_segment": 0,
        "end_progress": 1.0
      },
      "was_visible_when_stopped": false
    },
    {
      "trial_number": 4,
      "block_number": 1,
      "trial_in_block": 4,
      "display_order": 4,
      "trajectory_type": "sequential",
      "duration": 2100.005582715149,
      "speed": 8.99,
      "assigned_speed": 8.99,
      "assigned_duration": 1600,
      "trajectory_number": 1,
      "condition_type": "occlusion_timed",
      "start_time": 11420,
      "movement_start_time": 12351,
      "stimulus_start_time": null,
      "movement_end_time": 14009,
      "occlusion_start_time": 12863,
      "reference_response_time": 2100.005582715149,
      "stimulus_presentation_time": 0.0,
      "trajectory_completion_time": 2100.005582715149,
      "actual_response_time_movement": 1658,
      "actual_response_time_stimulus": null,
      "space_press_time": 14009,
      "reaction_time": 1658,
      "stopped_by_user": true,
      "completed_normally": false,
      "actual_trajectory_duration": 1658,
      "timing_estimation": null,
      "reproduction_results": null,
      "occlusion_zone": {
        "start_segment": 0,
        "start_progress": 0.0,
        "end_segment": 0,
        "end_progress": 1.0
      },
      "was_visible_when_stopped": false
    },
    {
      "trial_number": 5,
      "block_number": 1,
      "trial_in_block": 5,
      "display_order": 5,
      "trajectory_type": "sequential",
      "duration": 3400.0169810864754,
      "speed": 8.99,
      "assigned_speed": 8.99,
      "assigned_duration": 2900,
      "trajectory_number": 0,
      "condition_type": "occlusion_timed",
      "start_time": 15299,
      "movement_start_time": 16232,
      "stimulus_start_time": null,
      "movement_end_time": 18450,
      "occlusion_start_time": 16744,
      "reference_response_time": 3400.0169810864754,
      "stimulus_presentation_time": 0.0,
      "trajectory_completion_time": 3400.0169810864754,
      "actual_response_time_movement": 2218,
      "actual_response_time_stimulus": null,
      "space_press_time": 18450,
      "reaction_time": 2218,
      "stopped_by_user": true,
      "completed_normally": false,
      "actual_trajectory_duration": 2218,
      "timing_estimation": null,
      "reproduction_results": null,
      "occlusion_zone": {
        "start_segment": 0,
        "start_progress": 0.0,
        "end_segment": 0,
        "end_progress": 1.0
      },
      "was_visible_when_stopped": false
    },
    {
      "trial_number": 6,
      "block_number": 1,
      "trial_in_block": 6,
      "display_order": 6,
      "trajectory_type": "sequential",
      "duration": 3399.9823233145303,
      "speed": 8.99,
      "assigned_speed": 8.99,
      "assigned_duration": 2900,
      "trajectory_number": 1,
      "condition_type": "occlusion_timed",
      "start_time": 19715,
      "movement_start_time": 20641,
      "stimulus_start_time": null,
      "movement_end_time": 22978,
      "occlusion_start_time": 21154,
      "reference_response_time": 3399.9823233145303,
      "stimulus_presentation_time": 0.0,
      "trajectory_completion_time": 3399.9823233145303,
      "actual_response_time_movement": 2337,
      "actual_response_time_stimulus": null,
      "space_press_time": 22978,
      "reaction_time": 2337,
      "stopped_by_user": true,
      "completed_normally": false,
      "actual_trajectory_duration": 2337,
      "timing_estimation": null,
      "reproduction_results": null,
      "occlusion_zone": {
        "start_segment": 0,
        "start_progress": 0.0,
        "end_segment": 0,
        "end_progress": 1.0
      },
      "was_visible_when_stopped": false
    },
    {
      "trial_number": 7,
      "block_number": 1,
      "trial_in_block": 7,
      "display_order": 7,
      "trajectory_type": "sequential",
      "duration": 999.9951195341583,
      "speed": 18.0,
      "assigned_speed": 18.0,
      "assigned_duration": 500,
      "trajectory_number": 0,
      "condition_type": "occlusion_timed",
      "start_time": 24253,
      "movement_start_time": 25182,
      "stimulus_start_time": null,
      "movement_end_time": 26896,
      "occlusion_start_time": 25696,
      "reference_response_time": 999.9951195341583,
      "stimulus_presentation_time": 0.0,
      "trajectory_completion_time": 999.9951195341583,
      "actual_response_time_movement": 1714,
      "actual_response_time_stimulus": null,
      "space_press_time": 26896,
      "reaction_time": 1714,
      "stopped_by_user": true,
      "completed_normally": false,
      "actual_trajectory_duration": 1714,
      "timing_estimation": null,
      "reproduction_results": null,
      "occlusion_zone": {
        "start_segment": 0,
        "start_progress": 0.0,
        "end_segment": 0,
        "end_progress": 1.0
      },
      "was_visible_when_stopped": false
    },
    {
      "trial_number": 8,
      "block_number": 1,
      "trial_in_block": 8,
      "display_order": 8,
      "trajectory_type": "sequential",
      "duration": 999.9965566609246,
      "speed": 18.0,
      "assigned_speed": 18.0,
      "assigned_duration": 500,
      "trajectory_number": 1,
      "condition_type": "occlusion_timed",
      "start_time": 28052,
      "movement_start_time": 28981,
      "stimulus_start_time": null,
      "movement_end_time": 30719,
      "occlusion_start_time": 29493,
      "reference_response_time": 999.9965566609246,
      "stimulus_presentation_time": 0.0,
      "trajectory_completion_time": 999.9965566609246,
      "actual_response_time_movement": 1738,
      "actual_response_time_stimulus": null,
      "space_press_time": 30719,
      "reaction_time": 1738,
      "stopped_by_user": true,
      "completed_normally": false,
      "actual_trajectory_duration": 1738,
      "timing_estimation": null,
      "reproduction_results": null,
      "occlusion_zone": {
        "start_segment": 0,
        "start_progress": 0.0,
        "end_segment": 0,
        "end_progress": 1.0
      },
      "was_visible_when_stopped": false
    },
    {
      "trial_number": 9,
      "block_number": 1,
      "trial_in_block": 9,
      "display_order": 9,
      "trajectory_type": "sequential",
      "duration": 2099.9803547737774,
      "speed": 18.0,
      "assigned_speed": 18.0,
      "assigned_duration": 1600,
      "trajectory_number": 0,
      "condition_type": "occlusion_timed",
      "start_time": 31930,
      "movement_start_time": 32852,
      "stimulus_start_time": null,
      "movement_end_time": 35676,
      "occlusion_start_time": 33363,
      "reference_response_time": 2099.9803547737774,
      "stimulus_presentation_time": 0.0,
      "trajectory_completion_time": 2099.9803547737774,
      "actual_response_time_movement": 2824,
      "actual_response_time_stimulus": null,
      "space_press_time": 35676,
      "reaction_time": 2824,
      "stopped_by_user": true,
      "completed_normally": false,
      "actual_trajectory_duration": 2824,
      "timing_estimation": null,
      "reproduction_results": null,
      "occlusion_zone": {
        "start_segment": 0,
        "start_progress": 0.0,
        "end_segment": 0,
        "end_progress": 1.0
      },
      "was_visible_when_stopped": false
    },
    {
      "trial_number": 10,
      "block_number": 1,
      "trial_in_block": 10,
      "display_order": 10,
      "trajectory_type": "sequential",
      "duration": 2099.999222265341,
      "speed": 18.0,
      "assigned_speed": 18.0,
      "assigned_duration": 1600,
      "trajectory_number": 1,
      "condition_type": "occlusion_timed",
      "start_time": 36906,
      "movement_start_time": 37831,
      "stimulus_start_time": null,
      "movement_end_time": 41200,
      "occlusion_start_time": 38344,
      "reference_response_time": 2099.999222265341,
      "stimulus_presentation_time": 0.0,
      "trajectory_completion_time": 2099.999222265341,
      "actual_response_time_movement": 3369,
      "actual_response_time_stimulus": null,
      "space_press_time": 41200,
      "reaction_time": 3369,
      "stopped_by_user": true,
      "completed_normally": false,
      "actual_trajectory_duration": 3369,
      "timing_estimation": null,
      "reproduction_results": null,
      "occlusion_zone": {
        "start_segment": 0,
        "start_progress": 0.0,
        "end_segment": 0,
        "end_progress": 1.0
      },
      "was_visible_when_stopped": false
    },
    {
      "trial_number": 11,
      "block_number": 1,
      "trial_in_block": 11,
      "display_order": 11,
      "trajectory_type": "sequential",
      "duration": 3399.9993556137865,
      "speed": 18.0,
      "assigned_speed": 18.0,
      "assigned_duration": 2900,
      "trajectory_number": 0,
      "condition_type": "occlusion_timed",
      "start_time": 42371,
      "movement_start_time": 43301,
      "stimulus_start_time": null,
      "movement_end_time": 46720,
      "occlusion_start_time": 43801,
      "reference_response_time": 3399.9993556137865,
      "stimulus_presentation_time": 0.0,
      "trajectory_completion_time": 3399.9993556137865,
      "actual_response_time_movement": 3419,
      "actual_response_time_stimulus": null,
      "space_press_time": 46720,
      "reaction_time": 3419,
      "stopped_by_user": true,
      "completed_normally": false,
      "actual_trajectory_duration": 3419,
      "timing_estimation": null,
      "reproduction_results": null,
      "occlusion_zone": {
        "start_segment": 0,
        "start_progress": 0.0,
        "end_segment": 0,
        "end_progress": 1.0
      },
      "was_visible_when_stopped": false
    },
    {
      "trial_number": 12,
      "block_number": 1,
      "trial_in_block": 12,
      "display_order": 12,
      "trajectory_type": "sequential",
      "duration": 3400.0006826007293,
      "speed": 18.0,
      "assigned_speed": 18.0,
      "assigned_duration": 2900,
      "trajectory_number": 1,
      "condition_type": "occlusion_timed",
      "start_time": 47919,
      "movement_start_time": 48842,
      "stimulus_start_time": null,
      "movement_end_time": 51066,
      "occlusion_start_time": 49357,
      "reference_response_time": 3400.0006826007293,
      "stimulus_presentation_time": 0.0,
      "trajectory_completion_time": 3400.0006826007293,
      "actual_response_time_movement": 2224,
      "actual_response_time_stimulus": null,
      "space_press_time": 51066,
      "reaction_time": 2224,
      "stopped_by_user": true,
      "completed_normally": false,
      "actual_trajectory_duration": 2224,
      "timing_estimation": null,
      "reproduction_results": null,
      "occlusion_zone": {
        "start_segment": 0,
        "start_progress": 0.0,
        "end_segment": 0,
        "end_progress": 1.0
      },
      "was_visible_when_stopped": false
    },
    {
      "trial_number": 13,
      "block_number": 1,
      "trial_in_block": 13,
      "display_order": 13,
      "trajectory_type": "sequential",
      "duration": 499.9903728469039,
      "speed": 8.99,
      "assigned_speed": 8.99,
      "assigned_duration": 500,
      "trajectory_number": 0,
      "condition_type": "timing_estimation",
      "start_time": 52348,
      "movement_start_time": 53278,
      "stimulus_start_time": null,
      "movement_end_time": 53779,
      "occlusion_start_time": null,
      "reference_response_time": 499.9903728469039,
      "stimulus_presentation_time": 0.0,
      "trajectory_completion_time": 499.9903728469039,
      "actual_response_time_movement": 501,
      "actual_response_time_stimulus": null,
      "space_press_time": 53779,
      "reaction_time": 501,
      "stopped_by_user": true,
      "completed_normally": true,
      "actual_trajectory_duration": 501,
      "timing_estimation": {
        "actual_duration": 501,
        "estimated_duration": 949,
        "estimation_error": 448,
        "estimation_error_abs": 448,
        "estimation_ratio": 1.8942115768463075
      },
      "reproduction_results": null,
      "occlusion_zone": null,
      "was_visible_when_stopped": true
    },
    {
      "trial_number": 13,
      "block_number": 1,
      "trial_in_block": 13,
      "display_order": 13,
      "trajectory_type": "sequential",
      "duration": 499.9903728469039,
      "speed": 8.99,
      "assigned_speed": 8.99,
      "assigned_duration": 500,
      "trajectory_number": 0,
      "condition_type": "timing_estimation",
      "start_time": 52348,
      "movement_start_time": 53278,
      "stimulus_start_time": null,
      "movement_end_time": 53779,
      "occlusion_start_time": null,
      "reference_response_time": 499.9903728469039,
      "stimulus_presentation_time": 0.0,
      "trajectory_completion_time": 499.9903728469039,
      "actual_response_time_movement": 501,
      "actual_response_time_stimulus": null,
      "space_press_time": 53779,
      "reaction_time": 501,
      "stopped_by_user": true,
      "completed_normally": false,
      "actual_trajectory_duration": 501,
      "timing_estimation": {
        "actual_duration": 501,
        "estimated_duration": 949,
        "estimation_error": 448,
        "estimation_error_abs": 448,
        "estimation_ratio": 1.8942115768463075
      },
      "reproduction_results": null,
      "occlusion_zone": null,
      "was_visible_when_stopped": true
    },
    {
      "trial_number": 14,
      "block_number": 1,
      "trial_in_block": 14,
      "display_order": 14,
      "trajectory_type": "sequential",
      "duration": 499.99725069452285,
      "speed": 8.99,
      "assigned_speed": 8.99,
      "assigned_duration": 500,
      "trajectory_number": 1,
      "condition_type": "timing_estimation",
      "start_time": 56023,
      "movement_start_time": 56952,
      "stimulus_start_time": null,
      "movement_end_time": 57371,
      "occlusion_start_time": null,
      "reference_response_time": 499.99725069452285,
      "stimulus_presentation_time": 0.0,
      "trajectory_completion_time": 499.99725069452285,
      "actual_response_time_movement": 419,
      "actual_response_time_stimulus": null,
      "space_press_time": 57371,
      "reaction_time": 419,
      "stopped_by_user": true,
      "completed_normally": true,
      "actual_trajectory_duration": 419,
      "timing_estimation": {
        "actual_duration": 419,
        "estimated_duration": 1327,
        "estimation_error": 908,
        "estimation_error_abs": 908,
        "estimation_ratio": 3.1670644391408116
      },
      "reproduction_results": null,
      "occlusion_zone": null,
      "was_visible_when_stopped": true
    },
    {
      "trial_number": 14,
      "block_number": 1,
      "trial_in_block": 14,
      "display_order": 14,
      "trajectory_type": "sequential",
      "duration": 499.99725069452285,
      "speed": 8.99,
      "assigned_speed": 8.99,
      "assigned_duration": 500,
      "trajectory_number": 1,
      "condition_type": "timing_estimation",
      "start_time": 56023,
      "movement_start_time": 56952,
      "stimulus_start_time": null,
      "movement_end_time": 57371,
      "occlusion_start_time": null,
      "reference_response_time": 499.99725069452285,
      "stimulus_presentation_time": 0.0,
      "trajectory_completion_time": 499.99725069452285,
      "actual_response_time_movement": 419,
      "actual_response_time_stimulus": null,
      "space_press_time": 57371,
      "reaction_time": 419,
      "stopped_by_user": true,
      "completed_normally": false,
      "actual_trajectory_duration": 419,
      "timing_estimation": {
        "actual_duration": 419,
        "estimated_duration": 1327,
        "estimation_error": 908,
        "estimation_error_abs": 908,
        "estimation_ratio": 3.1670644391408116
      },
      "reproduction_results": null,
      "occlusion_zone": null,
      "was_visible_when_stopped": true
    },
    {
      "trial_number": 15,
      "block_number": 1,
      "trial_in_block": 15,
      "display_order": 15,
      "trajectory_type": "sequential",
      "duration": 1599.990384863357,
      "speed": 8.99,
      "assigned_speed": 8.99,
      "assigned_duration": 1600,
      "trajectory_number": 0,
      "condition_type": "timing_estimation",
      "start_time": 59910,
      "movement_start_time": 60838,
      "stimulus_start_time": null,
      "movement_end_time": 62437,
      "occlusion_start_time": null,
      "reference_response_time": 1599.990384863357,
      "stimulus_presentation_time": 0.0,
      "trajectory_completion_time": 1599.990384863357,
      "actual_response_time_movement": 1599,
      "actual_response_time_stimulus": null,
      "space_press_time": 62437,
      "reaction_time": 1599,
      "stopped_by_user": true,
      "completed_normally": true,
      "actual_trajectory_duration": 1599,
      "timing_estimation": {
        "actual_duration": 1599,
        "estimated_duration": 1726,
        "estimation_error": 127,
        "estimation_error_abs": 127,
        "estimation_ratio": 1.07942464040025
      },
      "reproduction_results": null,
      "occlusion_zone": null,
      "was_visible_when_stopped": true
    },
    {
      "trial_number": 15,
      "block_number": 1,
      "trial_in_block": 15,
      "display_order": 15,
      "trajectory_type": "sequential",
      "duration": 1599.990384863357,
      "speed": 8.99,
      "assigned_speed": 8.99,
      "assigned_duration": 1600,
      "trajectory_number": 0,
      "condition_type": "timing_estimation",
      "start_time": 59910,
      "movement_start_time": 60838,
      "stimulus_start_time": null,
      "movement_end_time": 62437,
      "occlusion_start_time": null,
      "reference_response_time": 1599.990384863357,
      "stimulus_presentation_time": 0.0,
      "trajectory_completion_time": 1599.990384863357,
      "actual_response_time_movement": 1599,
      "actual_response_time_stimulus": null,
      "space_press_time": 62437,
      "reaction_time": 1599,
      "stopped_by_user": true,
      "completed_normally": false,
      "actual_trajectory_duration": 1599,
      "timing_estimation": {
        "actual_duration": 1599,
        "estimated_duration": 1726,
        "estimation_error": 127,
        "estimation_error_abs": 127,
        "estimation_ratio": 1.07942464040025
      },
      "reproduction_results": null,
      "occlusion_zone": null,
      "was_visible_when_stopped": true
    },
    {
      "trial_number": 16,
      "block_number": 1,
      "trial_in_block": 16,
      "display_order": 16,
      "trajectory_type": "sequential",
      "duration": 1600.0237332775637,
      "speed": 8.99,
      "assigned_speed": 8.99,
      "assigned_duration": 1600,
      "trajectory_number": 1,
      "condition_type": "timing_estimation",
      "start_time": 65477,
      "movement_start_time": 66406,
      "stimulus_start_time": null,
      "movement_end_time": 66618,
      "occlusion_start_time": null,
      "reference_response_time": 1600.0237332775637,
      "stimulus_presentation_time": 0.0,
      "trajectory_completion_time": 1600.0237332775637,
      "actual_response_time_movement": 212,
      "actual_response_time_stimulus": null,
      "space_press_time": 66618,
      "reaction_time": 212,
      "stopped_by_user": true,
      "completed_normally": true,
      "actual_trajectory_duration": 212,
      "timing_estimation": {
        "actual_duration": 212,
        "estimated_duration": 67,
        "estimation_error": -145,
        "estimation_error_abs": 145,
        "estimation_ratio": 0.3160377358490566
      },
      "reproduction_results": null,
      "occlusion_zone": null,
      "was_visible_when_stopped": true
    },
    {
      "trial_number": 16,
      "block_number": 1,
      "trial_in_block": 16,
      "display_order": 16,
      "trajectory_type": "sequential",
      "duration": 1600.0237332775637,
      "speed": 8.99,
      "assigned_speed": 8.99,
      "assigned_duration": 1600,
      "trajectory_number": 1,
      "condition_type": "timing_estimation",
      "start_time": 65477,
      "movement_start_time": 66406,
      "stimulus_start_time": null,
      "movement_end_time": 66618,
      "occlusion_start_time": null,
      "reference_response_time": 1600.0237332775637,
      "stimulus_presentation_time": 0.0,
      "trajectory_completion_time": 1600.0237332775637,
      "actual_response_time_movement": 212,
      "actual_response_time_stimulus": null,
      "space_press_time": 66618,
      "reaction_time": 212,
      "stopped_by_user": true,
      "completed_normally": false,
      "actual_trajectory_duration": 212,
      "timing_estimation": {
        "actual_duration": 212,
        "estimated_duration": 67,
        "estimation_error": -145,
        "estimation_error_abs": 145,
        "estimation_ratio": 0.3160377358490566
      },
      "reproduction_results": null,
      "occlusion_zone": null,
      "was_visible_when_stopped": true
    },
    {
      "trial_number": 17,
      "block_number": 1,
      "trial_in_block": 17,
      "display_order": 17,
      "trajectory_type": "sequential",
      "duration": 2900.016496881931,
      "speed": 8.99,
      "assigned_speed": 8.99,
      "assigned_duration": 2900,
      "trajectory_number": 0,
      "condition_type": "timing_estimation",
      "start_time": 67786,
      "movement_start_time": 68710,
      "stimulus_start_time": null,
      "movement_end_time": 68861,
      "occlusion_start_time": null,
      "reference_response_time": 2900.016496881931,
      "stimulus_presentation_time": 0.0,
      "trajectory_completion_time": 2900.016496881931,
      "actual_response_time_movement": 151,
      "actual_response_time_stimulus": null,
      "space_press_time": 68861,
      "reaction_time": 151,
      "stopped_by_user": true,
      "completed_normally": true,
      "actual_trajectory_duration": 151,
      "timing_estimation": {
        "actual_duration": 151,
        "estimated_duration": 34,
        "estimation_error": -117,
        "estimation_error_abs": 117,
        "estimation_ratio": 0.2251655629139073
      },
      "reproduction_results": null,
      "occlusion_zone": null,
      "was_visible_when_stopped": true
    },
    {
      "trial_number": 17,
      "block_number": 1,
      "trial_in_block": 17,
      "display_order": 17,
      "trajectory_type": "sequential",
      "duration": 2900.016496881931,
      "speed": 8.99,
      "assigned_speed": 8.99,
      "assigned_duration": 2900,
      "trajectory_number": 0,
      "condition_type": "timing_estimation",
      "start_time": 67786,
      "movement_start_time": 68710,
      "stimulus_start_time": null,
      "movement_end_time": 68861,
      "occlusion_start_time": null,
      "reference_response_time": 2900.016496881931,
      "stimulus_presentation_time": 0.0,
      "trajectory_completion_time": 2900.016496881931,
      "actual_response_time_movement": 151,
      "actual_response_time_stimulus": null,
      "space_press_time": 68861,
      "reaction_time": 151,
      "stopped_by_user": true,
      "completed_normally": false,
      "actual_trajectory_duration": 151,
      "timing_estimation": {
        "actual_duration": 151,
        "estimated_duration": 34,
        "estimation_error": -117,
        "estimation_error_abs": 117,
        "estimation_ratio": 0.2251655629139073
      },
      "reproduction_results": null,
      "occlusion_zone": null,
      "was_visible_when_stopped": true
    },
    {
      "trial_number": 18,
      "block_number": 1,
      "trial_in_block": 18,
      "display_order": 18,
      "trajectory_type": "sequential",
      "duration": 2900.019379328254,
      "speed": 8.99,
      "assigned_speed": 8.99,
      "assigned_duration": 2900,
      "trajectory_number": 1,
      "condition_type": "timing_estimation",
      "start_time": 69991,
      "movement_start_time": 70917,
      "stimulus_start_time": null,
      "movement_end_time": 70948,
      "occlusion_start_time": null,
      "reference_response_time": 2900.019379328254,
      "stimulus_presentation_time": 0.0,
      "trajectory_completion_time": 2900.019379328254,
      "actual_response_time_movement": 31,
      "actual_response_time_stimulus": null,
      "space_press_time": 70948,
      "reaction_time": 31,
      "stopped_by_user": true,
      "completed_normally": true,
      "actual_trajectory_duration": 31,
      "timing_estimation": {
        "actual_duration": 31,
        "estimated_duration": 49,
        "estimation_error": 18,
        "estimation_error_abs": 18,
        "estimation_ratio": 1.5806451612903225
      },
      "reproduction_results": null,
      "occlusion_zone": null,
      "was_visible_when_stopped": true
    },
    {
      "trial_number": 18,
      "block_number": 1,
      "trial_in_block": 18,
      "display_order": 18,
      "trajectory_type": "sequential",
      "duration": 2900.019379328254,
      "speed": 8.99,
      "assigned_speed": 8.99,
      "assigned_duration": 2900,
      "trajectory_number": 1,
      "condition_type": "timing_estimation",
      "start_time": 69991,
      "movement_start_time": 70917,
      "stimulus_start_time": null,
      "movement_end_time": 70948,
      "occlusion_start_time": null,
      "reference_response_time": 2900.019379328254,
      "stimulus_presentation_time": 0.0,
      "trajectory_completion_time": 2900.019379328254,
      "actual_response_time_movement": 31,
      "actual_response_time_stimulus": null,
      "space_press_time": 70948,
      "reaction_time": 31,
      "stopped_by_user": true,
      "completed_normally": false,
      "actual_trajectory_duration": 31,
      "timing_estimation": {
        "actual_duration": 31,
        "estimated_duration": 49,
        "estimation_error": 18,
        "estimation_error_abs": 18,
        "estimation_ratio": 1.5806451612903225
      },
      "reproduction_results": null,
      "occlusion_zone": null,
      "was_visible_when_stopped": true
    },
    {
      "trial_number": 19,
      "block_number": 1,
      "trial_in_block": 19,
      "display_order": 19,
      "trajectory_type": "sequential",
      "duration": 499.99591741559703,
      "speed": 18.0,
      "assigned_speed": 18.0,
      "assigned_duration": 500,
      "trajectory_number": 0,
      "condition_type": "timing_estimation",
      "start_time": 72097,
      "movement_start_time": 73023,
      "stimulus_start_time": null,
      "movement_end_time": 73075,
      "occlusion_start_time": null,
      "reference_response_time": 499.99591741559703,
      "stimulus_presentation_time": 0.0,
      "trajectory_completion_time": 499.99591741559703,
      "actual_response_time_movement": 52,
      "actual_response_time_stimulus": null,
      "space_press_time": 73075,
      "reaction_time": 52,
      "stopped_by_user": true,
      "completed_normally": true,
      "actual_trajectory_duration": 52,
      "timing_estimation": {
        "actual_duration": 52,
        "estimated_duration": 34,
        "estimation_error": -18,
        "estimation_error_abs": 18,
        "estimation_ratio": 0.6538461538461539
      },
      "reproduction_results": null,
      "occlusion_zone": null,
      "was_visible_when_stopped": true
    },
    {
      "trial_number": 19,
      "block_number": 1,
      "trial_in_block": 19,
      "display_order": 19,
      "trajectory_type": "sequential",
      "duration": 499.99591741559703,
      "speed": 18.0,
      "assigned_speed": 18.0,
      "assigned_duration": 500,
      "trajectory_number": 0,
      "condition_type": "timing_estimation",
      "start_time": 72097,
      "movement_start_time": 73023,
      "stimulus_start_time": null,
      "movement_end_time": 73075,
      "occlusion_start_time": null,
      "reference_response_time": 499.99591741559703,
      "stimulus_presentation_time": 0.0,
      "trajectory_completion_time": 499.99591741559703,
      "actual_response_time_movement": 52,
      "actual_response_time_stimulus": null,
      "space_press_time": 73075,
      "reaction_time": 52,
      "stopped_by_user": true,
      "completed_normally": false,
      "actual_trajectory_duration": 52,
      "timing_estimation": {
        "actual_duration": 52,
        "estimated_duration": 34,
        "estimation_error": -18,
        "estimation_error_abs": 18,
        "estimation_ratio": 0.6538461538461539
      },
      "reproduction_results": null,
      "occlusion_zone": null,
      "was_visible_when_stopped": true
    },
    {
      "trial_number": 20,
      "block_number": 1,
      "trial_in_block": 20,
      "display_order": 20,
      "trajectory_type": "sequential",
      "duration": 500.00178790888685,
      "speed": 18.0,
      "assigned_speed": 18.0,
      "assigned_duration": 500,
      "trajectory_number": 1,
      "condition_type": "timing_estimation",
      "start_time": 74211,
      "movement_start_time": 75138,
      "stimulus_start_time": null,
      "movement_end_time": 75187,
      "occlusion_start_time": null,
      "reference_response_time": 500.00178790888685,
      "stimulus_presentation_time": 0.0,
      "trajectory_completion_time": 500.00178790888685,
      "actual_response_time_movement": 49,
      "actual_response_time_stimulus": null,
      "space_press_time": 75187,
      "reaction_time": 49,
      "stopped_by_user": true,
      "completed_normally": true,
      "actual_trajectory_duration": 49,
      "timing_estimation": {
        "actual_duration": 49,
        "estimated_duration": 34,
        "estimation_error": -15,
        "estimation_error_abs": 15,
        "estimation_ratio": 0.6938775510204082
      },
      "reproduction_results": null,
      "occlusion_zone": null,
      "was_visible_when_stopped": true
    },
    {
      "trial_number": 20,
      "block_number": 1,
      "trial_in_block": 20,
      "display_order": 20,
      "trajectory_type": "sequential",
      "duration": 500.00178790888685,
      "speed": 18.0,
      "assigned_speed": 18.0,
      "assigned_duration": 500,
      "trajectory_number": 1,
      "condition_type": "timing_estimation",
      "start_time": 74211,
      "movement_start_time": 75138,
      "stimulus_start_time": null,
      "movement_end_time": 75187,
      "occlusion_start_time": null,
      "reference_response_time": 500.00178790888685,
      "stimulus_presentation_time": 0.0,
      "trajectory_completion_time": 500.00178790888685,
      "actual_response_time_movement": 49,
      "actual_response_time_stimulus": null,
      "space_press_time": 75187,
      "reaction_time": 49,
      "stopped_by_user": true,
      "completed_normally": false,
      "actual_trajectory_duration": 49,
      "timing_estimation": {
        "actual_duration": 49,
        "estimated_duration": 34,
        "estimation_error": -15,
        "estimation_error_abs": 15,
        "estimation_ratio": 0.6938775510204082
      },
      "reproduction_results": null,
      "occlusion_zone": null,
      "was_visible_when_stopped": true
    },
    {
      "trial_number": 21,
      "block_number": 1,
      "trial_in_block": 21,
      "display_order": 21,
      "trajectory_type": "sequential",
      "duration": 1600.0018756181428,
      "speed": 18.0,
      "assigned_speed": 18.0,
      "assigned_duration": 1600,
      "trajectory_number": 0,
      "condition_type": "timing_estimation",
      "start_time": 76341,
      "movement_start_time": 77268,
      "stimulus_start_time": null,
      "movement_end_time": 77302,
      "occlusion_start_time": null,
      "reference_response_time": 1600.0018756181428,
      "stimulus_presentation_time": 0.0,
      "trajectory_completion_time": 1600.0018756181428,
      "actual_response_time_movement": 34,
      "actual_response_time_stimulus": null,
      "space_press_time": 77302,
      "reaction_time": 34,
      "stopped_by_user": true,
      "completed_normally": true,
      "actual_trajectory_duration": 34,
      "timing_estimation": {
        "actual_duration": 34,
        "estimated_duration": 51,
        "estimation_error": 17,
        "estimation_error_abs": 17,
        "estimation_ratio": 1.5
      },
      "reproduction_results": null,
      "occlusion_zone": null,
      "was_visible_when_stopped": true
    },
    {
      "trial_number": 21,
      "block_number": 1,
      "trial_in_block": 21,
      "display_order": 21,
      "trajectory_type": "sequential",
      "duration": 1600.0018756181428,
      "speed": 18.0,
      "assigned_speed": 18.0,
      "assigned_duration": 1600,
      "trajectory_number": 0,
      "condition_type": "timing_estimation",
      "start_time": 76341,
      "movement_start_time": 77268,
      "stimulus_start_time": null,
      "movement_end_time": 77302,
      "occlusion_start_time": null,
      "reference_response_time": 1600.0018756181428,
      "stimulus_presentation_time": 0.0,
      "trajectory_completion_time": 1600.0018756181428,
      "actual_response_time_movement": 34,
      "actual_response_time_stimulus": null,
      "space_press_time": 77302,
      "reaction_time": 34,
      "stopped_by_user": true,
      "completed_normally": false,
      "actual_trajectory_duration": 34,
      "timing_estimation": {
        "actual_duration": 34,
        "estimated_duration": 51,
        "estimation_error": 17,
        "estimation_error_abs": 17,
        "estimation_ratio": 1.5
      },
      "reproduction_results": null,
      "occlusion_zone": null,
      "was_visible_when_stopped": true
    },
    {
      "trial_number": 22,
      "block_number": 1,
      "trial_in_block": 22,
      "display_order": 22,
      "trajectory_type": "sequential",
      "duration": 1599.9979904336642,
      "speed": 18.0,
      "assigned_speed": 18.0,
      "assigned_duration": 1600,
      "trajectory_number": 1,
      "condition_type": "timing_estimation",
      "start_time": 78498,
      "movement_start_time": 79423,
      "stimulus_start_time": null,
      "movement_end_time": 79558,
      "occlusion_start_time": null,
      "reference_response_time": 1599.9979904336642,
      "stimulus_presentation_time": 0.0,
      "trajectory_completion_time": 1599.9979904336642,
      "actual_response_time_movement": 135,
      "actual_response_time_stimulus": null,
      "space_press_time": 79558,
      "reaction_time": 135,
      "stopped_by_user": true,
      "completed_normally": true,
      "actual_trajectory_duration": 135,
      "timing_estimation": {
        "actual_duration": 135,
        "estimated_duration": 100,
        "estimation_error": -35,
        "estimation_error_abs": 35,
        "estimation_ratio": 0.7407407407407407
      },
      "reproduction_results": null,
      "occlusion_zone": null,
      "was_visible_when_stopped": true
    },
    {
      "trial_number": 22,
      "block_number": 1,
      "trial_in_block": 22,
      "display_order": 22,
      "trajectory_type": "sequential",
      "duration": 1599.9979904336642,
      "speed": 18.0,
      "assigned_speed": 18.0,
      "assigned_duration": 1600,
      "trajectory_number": 1,
      "condition_type": "timing_estimation",
      "start_time": 78498,
      "movement_start_time": 79423,
      "stimulus_start_time": null,
      "movement_end_time": 79558,
      "occlusion_start_time": null,
      "reference_response_time": 1599.9979904336642,
      "stimulus_presentation_time": 0.0,
      "trajectory_completion_time": 1599.9979904336642,
      "actual_response_time_movement": 135,
      "actual_response_time_stimulus": null,
      "space_press_time": 79558,
      "reaction_time": 135,
      "stopped_by_user": true,
      "completed_normally": false,
      "actual_trajectory_duration": 135,
      "timing_estimation": {
        "actual_duration": 135,
        "estimated_duration": 100,
        "estimation_error": -35,
        "estimation_error_abs": 35,
        "estimation_ratio": 0.7407407407407407
      },
      "reproduction_results": null,
      "occlusion_zone": null,
      "was_visible_when_stopped": true
    },
    {
      "trial_number": 23,
      "block_number": 1,
      "trial_in_block": 23,
      "display_order": 23,
      "trajectory_type": "sequential",
      "duration": 2900.0188699465093,
      "speed": 18.0,
      "assigned_speed": 18.0,
      "assigned_duration": 2900,
      "trajectory_number": 0,
      "condition_type": "timing_estimation",
      "start_time": 80763,
      "movement_start_time": 81696,
      "stimulus_start_time": null,
      "movement_end_time": 81729,
      "occlusion_start_time": null,
      "reference_response_time": 2900.0188699465093,
      "stimulus_presentation_time": 0.0,
      "trajectory_completion_time": 2900.0188699465093,
      "actual_response_time_movement": 33,
      "actual_response_time_stimulus": null,
      "space_press_time": 81729,
      "reaction_time": 33,
      "stopped_by_user": true,
      "completed_normally": true,
      "actual_trajectory_duration": 33,
      "timing_estimation": {
        "actual_duration": 33,
        "estimated_duration": 35,
        "estimation_error": 2,
        "estimation_error_abs": 2,
        "estimation_ratio": 1.0606060606060606
      },
      "reproduction_results": null,
      "occlusion_zone": null,
      "was_visible_when_stopped": true
    },
    {
      "trial_number": 23,
      "block_number": 1,
      "trial_in_block": 23,
      "display_order": 23,
      "trajectory_type": "sequential",
      "duration": 2900.0188699465093,
      "speed": 18.0,
      "assigned_speed": 18.0,
      "assigned_duration": 2900,
      "trajectory_number": 0,
      "condition_type": "timing_estimation",
      "start_time": 80763,
      "movement_start_time": 81696,
      "stimulus_start_time": null,
      "movement_end_time": 81729,
      "occlusion_start_time": null,
      "reference_response_time": 2900.0188699465093,
      "stimulus_presentation_time": 0.0,
      "trajectory_completion_time": 2900.0188699465093,
      "actual_response_time_movement": 33,
      "actual_response_time_stimulus": null,
      "space_press_time": 81729,
      "reaction_time": 33,
      "stopped_by_user": true,
      "completed_normally": false,
      "actual_trajectory_duration": 33,
      "timing_estimation": {
        "actual_duration": 33,
        "estimated_duration": 35,
        "estimation_error": 2,
        "estimation_error_abs": 2,
        "estimation_ratio": 1.0606060606060606
      },
      "reproduction_results": null,
      "occlusion_zone": null,
      "was_visible_when_stopped": true
    },
    {
      "trial_number": 24,
      "block_number": 1,
      "trial_in_block": 24,
      "display_order": 24,
      "trajectory_type": "sequential",
      "duration": 2899.996441848947,
      "speed": 18.0,
      "assigned_speed": 18.0,
      "assigned_duration": 2900,
      "trajectory_number": 1,
      "condition_type": "timing_estimation",
      "start_time": 82902,
      "movement_start_time": 83825,
      "stimulus_start_time": null,
      "movement_end_time": 83844,
      "occlusion_start_time": null,
      "reference_response_time": 2899.996441848947,
      "stimulus_presentation_time": 0.0,
      "trajectory_completion_time": 2899.996441848947,
      "actual_response_time_movement": 19,
      "actual_response_time_stimulus": null,
      "space_press_time": 83844,
      "reaction_time": 19,
      "stopped_by_user": true,
      "completed_normally": true,
      "actual_trajectory_duration": 19,
      "timing_estimation": {
        "actual_duration": 19,
        "estimated_duration": 68,
        "estimation_error": 49,
        "estimation_error_abs": 49,
        "estimation_ratio": 3.5789473684210527
      },
      "reproduction_results": null,
      "occlusion_zone": null,
      "was_visible_when_stopped": true
    },
    {
      "trial_number": 24,
      "block_number": 1,
      "trial_in_block": 24,
      "display_order": 24,
      "trajectory_type": "sequential",
      "duration": 2899.996441848947,
      "speed": 18.0,
      "assigned_speed": 18.0,
      "assigned_duration": 2900,
      "trajectory_number": 1,
      "condition_type": "timing_estimation",
      "start_time": 82902,
      "movement_start_time": 83825,
      "stimulus_start_time": null,
      "movement_end_time": 83844,
      "occlusion_start_time": null,
      "reference_response_time": 2899.996441848947,
      "stimulus_presentation_time": 0.0,
      "trajectory_completion_time": 2899.996441848947,
      "actual_response_time_movement": 19,
      "actual_response_time_stimulus": null,
      "space_press_time": 83844,
      "reaction_time": 19,
      "stopped_by_user": true,
      "completed_normally": false,
      "actual_trajectory_duration": 19,
      "timing_estimation": {
        "actual_duration": 19,
        "estimated_duration": 68,
        "estimation_error": 49,
        "estimation_error_abs": 49,
        "estimation_ratio": 3.5789473684210527
      },
      "reproduction_results": null,
      "occlusion_zone": null,
      "was_visible_when_stopped": true
    },
    {
      "trial_number": 25,
      "block_number": 1,
      "trial_in_block": 25,
      "display_order": 25,
      "trajectory_type": "none",
      "duration": 0,
      "speed": 0,
      "assigned_speed": 8.99,
      "assigned_duration": 500,
      "trajectory_number": 0,
      "condition_type": "reproduction",
      "start_time": 85026,
      "movement_start_time": null,
      "stimulus_start_time": null,
      "movement_end_time": 87411,
      "occlusion_start_time": null,
      "reference_response_time": null,
      "stimulus_presentation_time": null,
      "trajectory_completion_time": null,
      "actual_response_time_movement": null,
      "actual_response_time_stimulus": null,
      "space_press_time": null,
      "reaction_time": null,
      "stopped_by_user": false,
      "completed_normally": true,
      "actual_trajectory_duration": null,
      "timing_estimation": null,
      "reproduction_results": {
        "target_duration": 500,
        "reproduced_duration": 50,
        "reproduction_error": -450,
        "reproduction_error_abs": 450,
        "reproduction_ratio": 0.1
      },
      "occlusion_zone": null,
      "was_visible_when_stopped": true
    },
    {
      "trial_number": 25,
      "block_number": 1,
      "trial_in_block": 25,
      "display_order": 25,
      "trajectory_type": "none",
      "duration": 0,
      "speed": 0,
      "assigned_speed": 8.99,
      "assigned_duration": 500,
      "trajectory_number": 0,
      "condition_type": "reproduction",
      "start_time": 85026,
      "movement_start_time": null,
      "stimulus_start_time": null,
      "movement_end_time": 87411,
      "occlusion_start_time": null,
      "reference_response_time": null,
      "stimulus_presentation_time": null,
      "trajectory_completion_time": null,
      "actual_response_time_movement": null,
      "actual_response_time_stimulus": null,
      "space_press_time": null,
      "reaction_time": null,
      "stopped_by_user": false,
      "completed_normally": true,
      "actual_trajectory_duration": null,
      "timing_estimation": null,
      "reproduction_results": {
        "target_duration": 500,
        "reproduced_duration": 50,
        "reproduction_error": -450,
        "reproduction_error_abs": 450,
        "reproduction_ratio": 0.1
      },
      "occlusion_zone": null,
      "was_visible_when_stopped": true
    },
    {
      "trial_number": 26,
      "block_number": 1,
      "trial_in_block": 26,
      "display_order": 26,
      "trajectory_type": "none",
      "duration": 0,
      "speed": 0,
      "assigned_speed": 8.99,
      "assigned_duration": 500,
      "trajectory_number": 0,
      "condition_type": "reproduction",
      "start_time": 87617,
      "movement_start_time": null,
      "stimulus_start_time": null,
      "movement_end_time": 90040,
      "occlusion_start_time": null,
      "reference_response_time": null,
      "stimulus_presentation_time": null,
      "trajectory_completion_time": null,
      "actual_response_time_movement": null,
      "actual_response_time_stimulus": null,
      "space_press_time": null,
      "reaction_time": null,
      "stopped_by_user": false,
      "completed_normally": true,
      "actual_trajectory_duration": null,
      "timing_estimation": null,
      "reproduction_results": {
        "target_duration": 500,
        "reproduced_duration": 99,
        "reproduction_error": -401,
        "reproduction_error_abs": 401,
        "reproduction_ratio": 0.198
      },
      "occlusion_zone": null,
      "was_visible_when_stopped": true
    },
    {
      "trial_number": 26,
      "block_number": 1,
      "trial_in_block": 26,
      "display_order": 26,
      "trajectory_type": "none",
      "duration": 0,
      "speed": 0,
      "assigned_speed": 8.99,
      "assigned_duration": 500,
      "trajectory_number": 0,
      "condition_type": "reproduction",
      "start_time": 87617,
      "movement_start_time": null,
      "stimulus_start_time": null,
      "movement_end_time": 90040,
      "occlusion_start_time": null,
      "reference_response_time": null,
      "stimulus_presentation_time": null,
      "trajectory_completion_time": null,
      "actual_response_time_movement": null,
      "actual_response_time_stimulus": null,
      "space_press_time": null,
      "reaction_time": null,
      "stopped_by_user": false,
      "completed_normally": true,
      "actual_trajectory_duration": null,
      "timing_estimation": null,
      "reproduction_results": {
        "target_duration": 500,
        "reproduced_duration": 99,
        "reproduction_error": -401,
        "reproduction_error_abs": 401,
        "reproduction_ratio": 0.198
      },
      "occlusion_zone": null,
      "was_visible_when_stopped": true
    },
    {
      "trial_number": 27,
      "block_number": 1,
      "trial_in_block": 27,
      "display_order": 27,
      "trajectory_type": "none",
      "duration": 0,
      "speed": 0,
      "assigned_speed": 8.99,
      "assigned_duration": 500,
      "trajectory_number": 0,
      "condition_type": "reproduction",
      "start_time": 90205,
      "movement_start_time": null,
      "stimulus_start_time": null,
      "movement_end_time": 92702,
      "occlusion_start_time": null,
      "reference_response_time": null,
      "stimulus_presentation_time": null,
      "trajectory_completion_time": null,
      "actual_response_time_movement": null,
      "actual_response_time_stimulus": null,
      "space_press_time": null,
      "reaction_time": null,
      "stopped_by_user": false,
      "completed_normally": true,
      "actual_trajectory_duration": null,
      "timing_estimation": null,
      "reproduction_results": {
        "target_duration": 500,
        "reproduced_duration": 169,
        "reproduction_error": -331,
        "reproduction_error_abs": 331,
        "reproduction_ratio": 0.338
      },
      "occlusion_zone": null,
      "was_visible_when_stopped": true
    },
    {
      "trial_number": 27,
      "block_number": 1,
      "trial_in_block": 27,
      "display_order": 27,
      "trajectory_type": "none",
      "duration": 0,
      "speed": 0,
      "assigned_speed": 8.99,
      "assigned_duration": 500,
      "trajectory_number": 0,
      "condition_type": "reproduction",
      "start_time": 90205,
      "movement_start_time": null,
      "stimulus_start_time": null,
      "movement_end_time": 92702,
      "occlusion_start_time": null,
      "reference_response_time": null,
      "stimulus_presentation_time": null,
      "trajectory_completion_time": null,
      "actual_response_time_movement": null,
      "actual_response_time_stimulus": null,
      "space_press_time": null,
      "reaction_time": null,
      "stopped_by_user": false,
      "completed_normally": true,
      "actual_trajectory_duration": null,
      "timing_estimation": null,
      "reproduction_results": {
        "target_duration": 500,
        "reproduced_duration": 169,
        "reproduction_error": -331,
        "reproduction_error_abs": 331,
        "reproduction_ratio": 0.338
      },
      "occlusion_zone": null,
      "was_visible_when_stopped": true
    },
    {
      "trial_number": 28,
      "block_number": 1,
      "trial_in_block": 28,
      "display_order": 28,
      "trajectory_type": "none",
      "duration": 0,
      "speed": 0,
      "assigned_speed": 8.99,
      "assigned_duration": 500,
      "trajectory_number": 0,
      "condition_type": "reproduction",
      "start_time": 92902,
      "movement_start_time": null,
      "stimulus_start_time": null,
      "movement_end_time": 95247,
      "occlusion_start_time": null,
      "reference_response_time": null,
      "stimulus_presentation_time": null,
      "trajectory_completion_time": null,
      "actual_response_time_movement": null,
      "actual_response_time_stimulus": null,
      "space_press_time": null,
      "reaction_time": null,
      "stopped_by_user": false,
      "completed_normally": true,
      "actual_trajectory_duration": null,
      "timing_estimation": null,
      "reproduction_results": {
        "target_duration": 500,
        "reproduced_duration": 33,
        "reproduction_error": -467,
        "reproduction_error_abs": 467,
        "reproduction_ratio": 0.066
      },
      "occlusion_zone": null,
      "was_visible_when_stopped": true
    },
    {
      "trial_number": 28,
      "block_number": 1,
      "trial_in_block": 28,
      "display_order": 28,
      "trajectory_type": "none",
      "duration": 0,
      "speed": 0,
      "assigned_speed": 8.99,
      "assigned_duration": 500,
      "trajectory_number": 0,
      "condition_type": "reproduction",
      "start_time": 92902,
      "movement_start_time": null,
      "stimulus_start_time": null,
      "movement_end_time": 95247,
      "occlusion_start_time": null,
      "reference_response_time": null,
      "stimulus_presentation_time": null,
      "trajectory_completion_time": null,
      "actual_response_time_movement": null,
      "actual_response_time_stimulus": null,
      "space_press_time": null,
      "reaction_time": null,
      "stopped_by_user": false,
      "completed_normally": true,
      "actual_trajectory_duration": null,
      "timing_estimation": null,
      "reproduction_results": {
        "target_duration": 500,
        "reproduced_duration": 33,
        "reproduction_error": -467,
        "reproduction_error_abs": 467,
        "reproduction_ratio": 0.066
      },
      "occlusion_zone": null,
      "was_visible_when_stopped": true
    },
    {
      "trial_number": 29,
      "block_number": 1,
      "trial_in_block": 29,
      "display_order": 29,
      "trajectory_type": "none",
      "duration": 0,
      "speed": 0,
      "assigned_speed": 8.99,
      "assigned_duration": 1600,
      "trajectory_number": 0,
      "condition_type": "reproduction",
      "start_time": 95449,
      "movement_start_time": null,
      "stimulus_start_time": null,
      "movement_end_time": 98999,
      "occlusion_start_time": null,
      "reference_response_time": null,
      "stimulus_presentation_time": null,
      "trajectory_completion_time": null,
      "actual_response_time_movement": null,
      "actual_response_time_stimulus": null,
      "space_press_time": null,
      "reaction_time": null,
      "stopped_by_user": false,
      "completed_normally": true,
      "actual_trajectory_duration": null,
      "timing_estimation": null,
      "reproduction_results": {
        "target_duration": 1600,
        "reproduced_duration": 117,
        "reproduction_error": -1483,
        "reproduction_error_abs": 1483,
        "reproduction_ratio": 0.073125
      },
      "occlusion_zone": null,
      "was_visible_when_stopped": true
    },
    {
      "trial_number": 29,
      "block_number": 1,
      "trial_in_block": 29,
      "display_order": 29,
      "trajectory_type": "none",
      "duration": 0,
      "speed": 0,
      "assigned_speed": 8.99,
      "assigned_duration": 1600,
      "trajectory_number": 0,
      "condition_type": "reproduction",
      "start_time": 95449,
      "movement_start_time": null,
      "stimulus_start_time": null,
      "movement_end_time": 98999,
      "occlusion_start_time": null,
      "reference_response_time": null,
      "stimulus_presentation_time": null,
      "trajectory_completion_time": null,
      "actual_response_time_movement": null,
      "actual_response_time_stimulus": null,
      "space_press_time": null,
      "reaction_time": null,
      "stopped_by_user": false,
      "completed_normally": true,
      "actual_trajectory_duration": null,
      "timing_estimation": null,
      "reproduction_results": {
        "target_duration": 1600,
        "reproduced_duration": 117,
        "reproduction_error": -1483,
        "reproduction_error_abs": 1483,
        "reproduction_ratio": 0.073125
      },
      "occlusion_zone": null,
      "was_visible_when_stopped": true
    },
    {
      "trial_number": 30,
      "block_number": 1,
      "trial_in_block": 30,
      "display_order": 30,
      "trajectory_type": "none",
      "duration": 0,
      "speed": 0,
      "assigned_speed": 8.99,
      "assigned_duration": 1600,
      "trajectory_number": 0,
      "condition_type": "reproduction",
      "start_time": 99200,
      "movement_start_time": null,
      "stimulus_start_time": null,
      "movement_end_time": 102650,
      "occlusion_start_time": null,
      "reference_response_time": null,
      "stimulus_presentation_time": null,
      "trajectory_completion_time": null,
      "actual_response_time_movement": null,
      "actual_response_time_stimulus": null,
      "space_press_time": null,
      "reaction_time": null,
      "stopped_by_user": false,
      "completed_normally": true,
      "actual_trajectory_duration": null,
      "timing_estimation": null,
      "reproduction_results": {
        "target_duration": 1600,
        "reproduced_duration": 18,
        "reproduction_error": -1582,
        "reproduction_error_abs": 1582,
        "reproduction_ratio": 0.01125
      },
      "occlusion_zone": null,
      "was_visible_when_stopped": true
    },
    {
      "trial_number": 30,
      "block_number": 1,
      "trial_in_block": 30,
      "display_order": 30,
      "trajectory_type": "none",
      "duration": 0,
      "speed": 0,
      "assigned_speed": 8.99,
      "assigned_duration": 1600,
      "trajectory_number": 0,
      "condition_type": "reproduction",
      "start_time": 99200,
      "movement_start_time": null,
      "stimulus_start_time": null,
      "movement_end_time": 102650,
      "occlusion_start_time": null,
      "reference_response_time": null,
      "stimulus_presentation_time": null,
      "trajectory_completion_time": null,
      "actual_response_time_movement": null,
      "actual_response_time_stimulus": null,
      "space_press_time": null,
      "reaction_time": null,
      "stopped_by_user": false,
      "completed_normally": true,
      "actual_trajectory_duration": null,
      "timing_estimation": null,
      "reproduction_results": {
        "target_duration": 1600,
        "reproduced_duration": 18,
        "reproduction_error": -1582,
        "reproduction_error_abs": 1582,
        "reproduction_ratio": 0.01125
      },
      "occlusion_zone": null,
      "was_visible_when_stopped": true
    },
    {
      "trial_number": 31,
      "block_number": 1,
      "trial_in_block": 31,
      "display_order": 31,
      "trajectory_type": "none",
      "duration": 0,
      "speed": 0,
      "assigned_speed": 8.99,
      "assigned_duration": 1600,
      "trajectory_number": 0,
      "condition_type": "reproduction",
      "start_time": 102884,
      "movement_start_time": null,
      "stimulus_start_time": null,
      "movement_end_time": 106358,
      "occlusion_start_time": null,
      "reference_response_time": null,
      "stimulus_presentation_time": null,
      "trajectory_completion_time": null,
      "actual_response_time_movement": null,
      "actual_response_time_stimulus": null,
      "space_press_time": null,
      "reaction_time": null,
      "stopped_by_user": false,
      "completed_normally": true,
      "actual_trajectory_duration": null,
      "timing_estimation": null,
      "reproduction_results": {
        "target_duration": 1600,
        "reproduced_duration": 50,
        "reproduction_error": -1550,
        "reproduction_error_abs": 1550,
        "reproduction_ratio": 0.03125
      },
      "occlusion_zone": null,
      "was_visible_when_stopped": true
    },
    {
      "trial_number": 31,
      "block_number": 1,
      "trial_in_block": 31,
      "display_order": 31,
      "trajectory_type": "none",
      "duration": 0,
      "speed": 0,
      "assigned_speed": 8.99,
      "assigned_duration": 1600,
      "trajectory_number": 0,
      "condition_type": "reproduction",
      "start_time": 102884,
      "movement_start_time": null,
      "stimulus_start_time": null,
      "movement_end_time": 106358,
      "occlusion_start_time": null,
      "reference_response_time": null,
      "stimulus_presentation_time": null,
      "trajectory_completion_time": null,
      "actual_response_time_movement": null,
      "actual_response_time_stimulus": null,
      "space_press_time": null,
      "reaction_time": null,
      "stopped_by_user": false,
      "completed_normally": true,
      "actual_trajectory_duration": null,
      "timing_estimation": null,
      "reproduction_results": {
        "target_duration": 1600,
        "reproduced_duration": 50,
        "reproduction_error": -1550,
        "reproduction_error_abs": 1550,
        "reproduction_ratio": 0.03125
      },
      "occlusion_zone": null,
      "was_visible_when_stopped": true
    },
    {
      "trial_number": 32,
      "block_number": 1,
      "trial_in_block": 32,
      "display_order": 32,
      "trajectory_type": "none",
      "duration": 0,
      "speed": 0,
      "assigned_speed": 8.99,
      "assigned_duration": 1600,
      "trajectory_number": 0,
      "condition_type": "reproduction",
      "start_time": 106560,
      "movement_start_time": null,
      "stimulus_start_time": null,
      "movement_end_time": 110128,
      "occlusion_start_time": null,
      "reference_response_time": null,
      "stimulus_presentation_time": null,
      "trajectory_completion_time": null,
      "actual_response_time_movement": null,
      "actual_response_time_stimulus": null,
      "space_press_time": null,
      "reaction_time": null,
      "stopped_by_user": false,
      "completed_normally": true,
      "actual_trajectory_duration": null,
      "timing_estimation": null,
      "reproduction_results": {
        "target_duration": 1600,
        "reproduced_duration": 131,
        "reproduction_error": -1469,
        "reproduction_error_abs": 1469,
        "reproduction_ratio": 0.081875
      },
      "occlusion_zone": null,
      "was_visible_when_stopped": true
    },
    {
      "trial_number": 32,
      "block_number": 1,
      "trial_in_block": 32,
      "display_order": 32,
      "trajectory_type": "none",
      "duration": 0,
      "speed": 0,
      "assigned_speed": 8.99,
      "assigned_duration": 1600,
      "trajectory_number": 0,
      "condition_type": "reproduction",
      "start_time": 106560,
      "movement_start_time": null,
      "stimulus_start_time": null,
      "movement_end_time": 110128,
      "occlusion_start_time": null,
      "reference_response_time": null,
      "stimulus_presentation_time": null,
      "trajectory_completion_time": null,
      "actual_response_time_movement": null,
      "actual_response_time_stimulus": null,
      "space_press_time": null,
      "reaction_time": null,
      "stopped_by_user": false,
      "completed_normally": true,
      "actual_trajectory_duration": null,
      "timing_estimation": null,
      "reproduction_results": {
        "target_duration": 1600,
        "reproduced_duration": 131,
        "reproduction_error": -1469,
        "reproduction_error_abs": 1469,
        "reproduction_ratio": 0.081875
      },
      "occlusion_zone": null,
      "was_visible_when_stopped": true
    },
    {
      "trial_number": 33,
      "block_number": 1,
      "trial_in_block": 33,
      "display_order": 33,
      "trajectory_type": "none",
      "duration": 0,
      "speed": 0,
      "assigned_speed": 8.99,
      "assigned_duration": 2900,
      "trajectory_number": 0,
      "condition_type": "reproduction",
      "start_time": 110330,
      "movement_start_time": null,
      "stimulus_start_time": null,
      "movement_end_time": 115249,
      "occlusion_start_time": null,
      "reference_response_time": null,
      "stimulus_presentation_time": null,
      "trajectory_completion_time": null,
      "actual_response_time_movement": null,
      "actual_response_time_stimulus": null,
      "space_press_time": null,
      "reaction_time": null,
      "stopped_by_user": false,
      "completed_normally": true,
      "actual_trajectory_duration": null,
      "timing_estimation": null,
      "reproduction_results": {
        "target_duration": 2900,
        "reproduced_duration": 198,
        "reproduction_error": -2702,
        "reproduction_error_abs": 2702,
        "reproduction_ratio": 0.06827586206896552
      },
      "occlusion_zone": null,
      "was_visible_when_stopped": true
    },
    {
      "trial_number": 33,
      "block_number": 1,
      "trial_in_block": 33,
      "display_order": 33,
      "trajectory_type": "none",
      "duration": 0,
      "speed": 0,
      "assigned_speed": 8.99,
      "assigned_duration": 2900,
      "trajectory_number": 0,
      "condition_type": "reproduction",
      "start_time": 110330,
      "movement_start_time": null,
      "stimulus_start_time": null,
      "movement_end_time": 115249,
      "occlusion_start_time": null,
      "reference_response_time": null,
      "stimulus_presentation_time": null,
      "trajectory_completion_time": null,
      "actual_response_time_movement": null,
      "actual_response_time_stimulus": null,
      "space_press_time": null,
      "reaction_time": null,
      "stopped_by_user": false,
      "completed_normally": true,
      "actual_trajectory_duration": null,
      "timing_estimation": null,
      "reproduction_results": {
        "target_duration": 2900,
        "reproduced_duration": 198,
        "reproduction_error": -2702,
        "reproduction_error_abs": 2702,
        "reproduction_ratio": 0.06827586206896552
      },
      "occlusion_zone": null,
      "was_visible_when_stopped": true
    },
    {
      "trial_number": 34,
      "block_number": 1,
      "trial_in_block": 34,
      "display_order": 34,
      "trajectory_type": "none",
      "duration": 0,
      "speed": 0,
      "assigned_speed": 8.99,
      "assigned_duration": 2900,
      "trajectory_number": 0,
      "condition_type": "reproduction",
      "start_time": 115482,
      "movement_start_time": null,
      "stimulus_start_time": null,
      "movement_end_time": 120302,
      "occlusion_start_time": null,
      "reference_response_time": null,
      "stimulus_presentation_time": null,
      "trajectory_completion_time": null,
      "actual_response_time_movement": null,
      "actual_response_time_stimulus": null,
      "space_press_time": null,
      "reaction_time": null,
      "stopped_by_user": false,
      "completed_normally": true,
      "actual_trajectory_duration": null,
      "timing_estimation": null,
      "reproduction_results": {
        "target_duration": 2900,
        "reproduced_duration": 99,
        "reproduction_error": -2801,
        "reproduction_error_abs": 2801,
        "reproduction_ratio": 0.03413793103448276
      },
      "occlusion_zone": null,
      "was_visible_when_stopped": true
    },
    {
      "trial_number": 34,
      "block_number": 1,
      "trial_in_block": 34,
      "display_order": 34,
      "trajectory_type": "none",
      "duration": 0,
      "speed": 0,
      "assigned_speed": 8.99,
      "assigned_duration": 2900,
      "trajectory_number": 0,
      "condition_type": "reproduction",
      "start_time": 115482,
      "movement_start_time": null,
      "stimulus_start_time": null,
      "movement_end_time": 120302,
      "occlusion_start_time": null,
      "reference_response_time": null,
      "stimulus_presentation_time": null,
      "trajectory_completion_time": null,
      "actual_response_time_movement": null,
      "actual_response_time_stimulus": null,
      "space_press_time": null,
      "reaction_time": null,
      "stopped_by_user": false,
      "completed_normally": true,
      "actual_trajectory_duration": null,
      "timing_estimation": null,
      "reproduction_results": {
        "target_duration": 2900,
        "reproduced_duration": 99,
        "reproduction_error": -2801,
        "reproduction_error_abs": 2801,
        "reproduction_ratio": 0.03413793103448276
      },
      "occlusion_zone": null,
      "was_visible_when_stopped": true
    },
    {
      "trial_number": 35,
      "block_number": 1,
      "trial_in_block": 35,
      "display_order": 35,
      "trajectory_type": "none",
      "duration": 0,
      "speed": 0,
      "assigned_speed": 8.99,
      "assigned_duration": 2900,
      "trajectory_number": 0,
      "condition_type": "reproduction",
      "start_time": 120552,
      "movement_start_time": null,
      "stimulus_start_time": null,
      "movement_end_time": 125398,
      "occlusion_start_time": null,
      "reference_response_time": null,
      "stimulus_presentation_time": null,
      "trajectory_completion_time": null,
      "actual_response_time_movement": null,
      "actual_response_time_stimulus": null,
      "space_press_time": null,
      "reaction_time": null,
      "stopped_by_user": false,
      "completed_normally": true,
      "actual_trajectory_duration": null,
      "timing_estimation": null,
      "reproduction_results": {
        "target_duration": 2900,
        "reproduced_duration": 100,
        "reproduction_error": -2800,
        "reproduction_error_abs": 2800,
        "reproduction_ratio": 0.034482758620689655
      },
      "occlusion_zone": null,
      "was_visible_when_stopped": true
    },
    {
      "trial_number": 35,
      "block_number": 1,
      "trial_in_block": 35,
      "display_order": 35,
      "trajectory_type": "none",
      "duration": 0,
      "speed": 0,
      "assigned_speed": 8.99,
      "assigned_duration": 2900,
      "trajectory_number": 0,
      "condition_type": "reproduction",
      "start_time": 120552,
      "movement_start_time": null,
      "stimulus_start_time": null,
      "movement_end_time": 125398,
      "occlusion_start_time": null,
      "reference_response_time": null,
      "stimulus_presentation_time": null,
      "trajectory_completion_time": null,
      "actual_response_time_movement": null,
      "actual_response_time_stimulus": null,
      "space_press_time": null,
      "reaction_time": null,
      "stopped_by_user": false,
      "completed_normally": true,
      "actual_trajectory_duration": null,
      "timing_estimation": null,
      "reproduction_results": {
        "target_duration": 2900,
        "reproduced_duration": 100,
        "reproduction_error": -2800,
        "reproduction_error_abs": 2800,
        "reproduction_ratio": 0.034482758620689655
      },
      "occlusion_zone": null,
      "was_visible_when_stopped": true
    },
    {
      "trial_number": 36,
      "block_number": 1,
      "trial_in_block": 36,
      "display_order": 36,
      "trajectory_type": "none",
      "duration": 0,
      "speed": 0,
      "assigned_speed": 8.99,
      "assigned_duration": 2900,
      "trajectory_number": 0,
      "condition_type": "reproduction",
      "start_time": 125698,
      "movement_start_time": null,
      "stimulus_start_time": null,
      "movement_end_time": 130508,
      "occlusion_start_time": null,
      "reference_response_time": null,
      "stimulus_presentation_time": null,
      "trajectory_completion_time": null,
      "actual_response_time_movement": null,
      "actual_response_time_stimulus": null,
      "space_press_time": null,
      "reaction_time": null,
      "stopped_by_user": false,
      "completed_normally": true,
      "actual_trajectory_duration": null,
      "timing_estimation": null,
      "reproduction_results": {
        "target_duration": 2900,
        "reproduced_duration": 83,
        "reproduction_error": -2817,
        "reproduction_error_abs": 2817,
        "reproduction_ratio": 0.028620689655172414
      },
      "occlusion_zone": null,
      "was_visible_when_stopped": true
    },
    {
      "trial_number": 36,
      "block_number": 1,
      "trial_in_block": 36,
      "display_order": 36,
      "trajectory_type": "none",
      "duration": 0,
      "speed": 0,
      "assigned_speed": 8.99,
      "assigned_duration": 2900,
      "trajectory_number": 0,
      "condition_type": "reproduction",
      "start_time": 125698,
      "movement_start_time": null,
      "stimulus_start_time": null,
      "movement_end_time": 130508,
      "occlusion_start_time": null,
      "reference_response_time": null,
      "stimulus_presentation_time": null,
      "trajectory_completion_time": null,
      "actual_response_time_movement": null,
      "actual_response_time_stimulus": null,
      "space_press_time": null,
      "reaction_time": null,
      "stopped_by_user": false,
      "completed_normally": true,
      "actual_trajectory_duration": null,
      "timing_estimation": null,
      "reproduction_results": {
        "target_duration": 2900,
        "reproduced_duration": 83,
        "reproduction_error": -2817,
        "reproduction_error_abs": 2817,
        "reproduction_ratio": 0.028620689655172414
      },
      "occlusion_zone": null,
      "was_visible_when_stopped": true
    }
  ]
}