{
  "participant_id": "test_01",
  "block_number": 2,
  "timestamp": "20251118_192126",
  "total_trials": 2,
  "trials": [
    {
      "trial_number": 1,
      "block_number": 2,
      "trial_in_block": 1,
      "display_order": 1,
      "trajectory_type": "H1",
      "duration": 2899.832806375666,
      "speed": 6.67,
      "assigned_speed": 6.67,
      "assigned_duration": null,
      "trajectory_number": 4,
      "condition_type": "occlusion_timed",
      "start_time": 27979,
      "movement_start_time": 28912,
      "stimulus_start_time": null,
      "movement_end_time": 32818,
      "occlusion_start_time": 29426,
      "reference_response_time": 2899.832806375666,
      "stimulus_presentation_time": 0.0,
      "trajectory_completion_time": 2899.832806375666,
      "actual_response_time_movement": 3906,
      "actual_response_time_stimulus": null,
      "space_press_time": 32818,
      "reaction_time": 3906,
      "stopped_by_user": true,
      "completed_normally": false,
      "actual_trajectory_duration": 3906,
      "timing_estimation": null,
      "reproduction_results": null,
      "occlusion_zone": {
        "start_segment": 6,
        "start_progress": 0.6870845829733616,
        "end_segment": 13,
        "end_progress": 0.9999999999999987
      },
      "was_visible_when_stopped": false
    },
    {
      "trial_number": 2,
      "block_number": 2,
      "trial_in_block": 10,
      "display_order": 2,
      "trajectory_type": "H1",
      "duration": 2897.5784885692397,
      "speed": 6.67,
      "assigned_speed": 6.67,
      "assigned_duration": null,
      "trajectory_number": 0,
      "condition_type": "timing_estimation",
      "start_time": 35209,
      "movement_start_time": 36129,
      "stimulus_start_time": null,
      "movement_end_time": 41981,
      "occlusion_start_time": null,
      "reference_response_time": 2897.5784885692397,
      "stimulus_presentation_time": 0.0,
      "trajectory_completion_time": 2897.5784885692397,
      "actual_response_time_movement": 5852,
      "actual_response_time_stimulus": null,
      "space_press_time": 41981,
      "reaction_time": 5852,
      "stopped_by_user": true,
      "completed_normally": true,
      "actual_trajectory_duration": 5852,
      "timing_estimation": {
        "actual_duration": 5852,
        "estimated_duration": 4421,
        "estimation_error": -1431,
        "estimation_error_abs": 1431,
        "estimation_ratio": 0.7554682159945317
      },
      "reproduction_results": null,
      "occlusion_zone": null,
      "was_visible_when_stopped": true
    }
  ]
}